stimulus_pair onset         duration      trial_type    trial_number  correct_response            response      response_time stim_file_left              stim_file_right             stim_type_left              stim_type_right
AF             8.086         2.5          Testing        61           2             n/a            1.914        stim/5.jpeg   stim/4.jpeg   A             F
DF             12.682        2.5          Testing        62           1             n/a            1.52         stim/4.jpeg   stim/1.jpeg   F             D
BC             17.693        2.5          Testing        63                         n/a            0            stim/3.jpeg   stim/6.jpeg   B             C
DF             21.856        2.5          Testing        64           1             n/a            1.841        stim/4.jpeg   stim/1.jpeg   F             D
AF             27.65         2.5          Testing        65                         n/a            0            stim/5.jpeg   stim/4.jpeg   A             F
AC             31.213        2.5          Testing        66                         n/a            0            stim/6.jpeg   stim/5.jpeg   C             A
BE             36.808        2.5          Testing        67                         n/a            0            stim/3.jpeg   stim/2.jpeg   B             E
BF             42.602        2.5          Testing        68                         n/a            0            stim/4.jpeg   stim/3.jpeg   F             B
AF             46.798        2.5          Testing        69                         n/a            0            stim/4.jpeg   stim/5.jpeg   F             A
BF             52.393        2.5          Testing        70                         n/a            0            stim/4.jpeg   stim/3.jpeg   F             B
BE             57.304        2.5          Testing        71                         n/a            0            stim/2.jpeg   stim/3.jpeg   E             B
BF             62.283        2.5          Testing        72                         n/a            0            stim/3.jpeg   stim/4.jpeg   B             F
AE             65.863        2.5          Testing        73                         n/a            0            stim/5.jpeg   stim/2.jpeg   A             E
AF             70.858        2.5          Testing        74                         n/a            0            stim/4.jpeg   stim/5.jpeg   F             A
AE             76.652        2.5          Testing        75                         n/a            0            stim/2.jpeg   stim/5.jpeg   E             A
CE             80.848        2.5          Testing        76                         n/a            0            stim/2.jpeg   stim/6.jpeg   E             C
AC             84.444        2.5          Testing        77                         n/a            0            stim/6.jpeg   stim/5.jpeg   C             A
CE             89.023        2.5          Testing        78                         n/a            0            stim/6.jpeg   stim/2.jpeg   C             E
AD             94.618        2.5          Testing        79                         n/a            0            stim/1.jpeg   stim/5.jpeg   D             A
AD             98.547        2.5          Testing        80                         n/a            0            stim/5.jpeg   stim/1.jpeg   A             D
DE             104.342       2.5          Testing        81                         n/a            0            stim/2.jpeg   stim/1.jpeg   E             D
AD             109.32        2.5          Testing        82                         n/a            0            stim/1.jpeg   stim/5.jpeg   D             A
AE             113.882       2.5          Testing        83                         n/a            0            stim/5.jpeg   stim/2.jpeg   A             E
CE             119.46        2.5          Testing        84                         n/a            0            stim/6.jpeg   stim/2.jpeg   C             E
AF             123.639       2.5          Testing        85                         n/a            0            stim/5.jpeg   stim/4.jpeg   A             F
AD             129.434       2.5          Testing        86                         n/a            0            stim/5.jpeg   stim/1.jpeg   A             D
BF             133.03        2.5          Testing        87                         n/a            0            stim/3.jpeg   stim/4.jpeg   B             F
DF             138.608       2.5          Testing        88                         n/a            0            stim/1.jpeg   stim/4.jpeg   D             F
BD             143.603       2.5          Testing        89                         n/a            0            stim/3.jpeg   stim/1.jpeg   B             D
BE             147.799       2.5          Testing        90                         n/a            0            stim/3.jpeg   stim/2.jpeg   B             E
AF             152.394       2.5          Testing        91                         n/a            0            stim/4.jpeg   stim/5.jpeg   F             A
BE             158.172       2.5          Testing        92                         n/a            0            stim/3.jpeg   stim/2.jpeg   B             E
BC             162.768       2.5          Testing        93                         n/a            0            stim/6.jpeg   stim/3.jpeg   C             B
BE             167.763       2.5          Testing        94                         n/a            0            stim/2.jpeg   stim/3.jpeg   E             B
BC             171.959       2.5          Testing        95                         n/a            0            stim/3.jpeg   stim/6.jpeg   B             C
AF             177.536       2.5          Testing        96                         n/a            0            stim/4.jpeg   stim/5.jpeg   F             A
DF             181.116       2.5          Testing        97                         n/a            0            stim/4.jpeg   stim/1.jpeg   F             D
AF             186.711       2.5          Testing        98                         n/a            0            stim/5.jpeg   stim/4.jpeg   A             F
BC             190.907       2.5          Testing        99                         n/a            0            stim/6.jpeg   stim/3.jpeg   C             B
BD             195.486       2.5          Testing        100                        n/a            0            stim/1.jpeg   stim/3.jpeg   D             B
AE             201.28        2.5          Testing        101                        n/a            0            stim/2.jpeg   stim/5.jpeg   E             A
BD             204.876       2.5          Testing        102                        n/a            0            stim/1.jpeg   stim/3.jpeg   D             B
DF             209.871       2.5          Testing        103                        n/a            0            stim/1.jpeg   stim/4.jpeg   D             F
BF             215.666       2.5          Testing        104                        n/a            0            stim/4.jpeg   stim/3.jpeg   F             B
AD             220.261       2.5          Testing        105                        n/a            0            stim/1.jpeg   stim/5.jpeg   D             A
CF             223.824       2.5          Testing        106                        n/a            0            stim/4.jpeg   stim/6.jpeg   F             C
AC             228.02        2.5          Testing        107                        n/a            0            stim/5.jpeg   stim/6.jpeg   A             C
BD             233.615       2.5          Testing        108                        n/a            0            stim/1.jpeg   stim/3.jpeg   D             B
DE             238.61        2.5          Testing        109                        n/a            0            stim/1.jpeg   stim/2.jpeg   D             E
BE             243.189       2.5          Testing        110                        n/a            0            stim/2.jpeg   stim/3.jpeg   E             B
AC             248.966       2.5          Testing        111                        n/a            0            stim/5.jpeg   stim/6.jpeg   A             C
BC             254.561       2.5          Testing        112                        n/a            0            stim/3.jpeg   stim/6.jpeg   B             C
BC             259.556       2.5          Testing        113                        n/a            0            stim/6.jpeg   stim/3.jpeg   C             B
BF             263.752       2.5          Testing        114                        n/a            0            stim/3.jpeg   stim/4.jpeg   B             F
AE             267.348       2.5          Testing        115                        n/a            0            stim/2.jpeg   stim/5.jpeg   E             A
DE             272.343       2.5          Testing        116                        n/a            0            stim/1.jpeg   stim/2.jpeg   D             E
BC             275.923       2.5          Testing        117                        n/a            0            stim/3.jpeg   stim/6.jpeg   B             C
AE             281.701       2.5          Testing        118                        n/a            0            stim/5.jpeg   stim/2.jpeg   A             E
AD             287.295       2.5          Testing        119                        n/a            0            stim/1.jpeg   stim/5.jpeg   D             A
AE             291.891       2.5          Testing        120                        n/a            0            stim/5.jpeg   stim/2.jpeg   A             E
AC             296.07        2.5          Testing        121                        n/a            0            stim/6.jpeg   stim/5.jpeg   C             A
CF             299.667       2.5          Testing        122                        n/a            0            stim/4.jpeg   stim/6.jpeg   F             C
AC             303.829       2.5          Testing        123                        n/a            0            stim/6.jpeg   stim/5.jpeg   C             A
AF             308.824       2.5          Testing        124                        n/a            0            stim/4.jpeg   stim/5.jpeg   F             A
BD             313.403       2.5          Testing        125                        n/a            0            stim/3.jpeg   stim/1.jpeg   B             D
BF             319.181       2.5          Testing        126                        n/a            0            stim/3.jpeg   stim/4.jpeg   B             F
BF             324.775       2.5          Testing        127                        n/a            0            stim/4.jpeg   stim/3.jpeg   F             B
DF             329.754       2.5          Testing        128                        n/a            0            stim/1.jpeg   stim/4.jpeg   D             F
BF             335.548       2.5          Testing        129                        n/a            0            stim/4.jpeg   stim/3.jpeg   F             B
DE             339.727       2.5          Testing        130                        n/a            0            stim/1.jpeg   stim/2.jpeg   D             E
BD             344.323       2.5          Testing        131                        n/a            0            stim/3.jpeg   stim/1.jpeg   B             D
CF             349.901       2.5          Testing        132                        n/a            0            stim/6.jpeg   stim/4.jpeg   C             F
BC             353.497       2.5          Testing        133                        n/a            0            stim/3.jpeg   stim/6.jpeg   B             C
AF             358.076       2.5          Testing        134                        n/a            0            stim/5.jpeg   stim/4.jpeg   A             F
BD             363.671       2.5          Testing        135                        n/a            0            stim/1.jpeg   stim/3.jpeg   D             B
BC             369.465       2.5          Testing        136                        n/a            0            stim/6.jpeg   stim/3.jpeg   C             B
AC             373.028       2.5          Testing        137                        n/a            0            stim/5.jpeg   stim/6.jpeg   A             C
AE             377.224       2.5          Testing        138                        n/a            0            stim/5.jpeg   stim/2.jpeg   A             E
CF             382.219       2.5          Testing        139                        n/a            0            stim/6.jpeg   stim/4.jpeg   C             F
CF             386.398       2.5          Testing        140                        n/a            0            stim/6.jpeg   stim/4.jpeg   C             F
DE             391.993       2.5          Testing        141                        n/a            0            stim/2.jpeg   stim/1.jpeg   E             D
BE             395.556       2.5          Testing        142                        n/a            0            stim/2.jpeg   stim/3.jpeg   E             B
BC             400.151       2.5          Testing        143                        n/a            0            stim/6.jpeg   stim/3.jpeg   C             B
AC             405.929       2.5          Testing        144                        n/a            0            stim/5.jpeg   stim/6.jpeg   A             C
BF             410.924       2.5          Testing        145                        n/a            0            stim/3.jpeg   stim/4.jpeg   B             F
AD             414.521       2.5          Testing        146                        n/a            0            stim/5.jpeg   stim/1.jpeg   A             D
BE             419.516       2.5          Testing        147                        n/a            0            stim/3.jpeg   stim/2.jpeg   B             E
DE             425.31        2.5          Testing        148                        n/a            0            stim/2.jpeg   stim/1.jpeg   E             D
BE             430.905       2.5          Testing        149                        n/a            0            stim/2.jpeg   stim/3.jpeg   E             B
CE             435.1         2.5          Testing        150                        n/a            0            stim/6.jpeg   stim/2.jpeg   C             E
BD             439.696       2.5          Testing        151                        n/a            0            stim/1.jpeg   stim/3.jpeg   D             B
AE             445.29        2.5          Testing        152                        n/a            0            stim/2.jpeg   stim/5.jpeg   E             A
AD             450.286       2.5          Testing        153                        n/a            0            stim/5.jpeg   stim/1.jpeg   A             D
BD             453.882       2.5          Testing        154                        n/a            0            stim/3.jpeg   stim/1.jpeg   B             D
AE             459.676       2.5          Testing        155                        n/a            0            stim/2.jpeg   stim/5.jpeg   E             A
BD             464.272       2.5          Testing        156                        n/a            0            stim/3.jpeg   stim/1.jpeg   B             D
AC             468.468       2.5          Testing        157                        n/a            0            stim/6.jpeg   stim/5.jpeg   C             A
CE             472.064       2.5          Testing        158                        n/a            0            stim/2.jpeg   stim/6.jpeg   E             C
AD             477.059       2.5          Testing        159                        n/a            0            stim/5.jpeg   stim/1.jpeg   A             D
CF             482.654       2.5          Testing        160                        n/a            0            stim/4.jpeg   stim/6.jpeg   F             C
CE             486.833       2.5          Testing        161                        n/a            0            stim/2.jpeg   stim/6.jpeg   E             C
AD             492.627       2.5          Testing        162                        n/a            0            stim/1.jpeg   stim/5.jpeg   D             A
AC             497.206       2.5          Testing        163                        n/a            0            stim/5.jpeg   stim/6.jpeg   A             C
BE             500.786       2.5          Testing        164                        n/a            0            stim/3.jpeg   stim/2.jpeg   B             E
