stimulus_pair onset         duration      trial_type    trial_number  correct_response            response      response_time stim_file_left              stim_file_right             stim_type_left              stim_type_right             feedback      feedback_onset              feedback_duration
EF             8.115         2.5          Training       1            E             F              2.233        stim/4.jpeg   stim/2.jpeg   F             E             wrong          10.663        1 
AB             12.794        2.5          Training       2            B             A              1.343        stim/3.jpeg   stim/5.jpeg   B             A             wrong          15.341        1 
AB             18.838        2.5          Training       3            A             B              0.736        stim/3.jpeg   stim/5.jpeg   B             A             wrong          21.385        1 
AB             25.681        2.5          Training       4            A             n/a            0            stim/3.jpeg   stim/5.jpeg   B             A             noresponse     28.229        1 
CD             32.358        2.5          Training       5            C             n/a            0            stim/1.jpeg   stim/6.jpeg   D             C             noresponse     34.906        1 
AB             37.603        2.5          Training       6            A             n/a            0            stim/5.jpeg   stim/3.jpeg   A             B             noresponse     40.15         1 
CD             43.247        2.5          Training       7            C             n/a            0            stim/6.jpeg   stim/1.jpeg   C             D             noresponse     45.795        1 
EF             49.275        2.5          Training       8            E             n/a            0            stim/2.jpeg   stim/4.jpeg   E             F             noresponse     51.822        1 
EF             54.919        2.5          Training       9            E             n/a            0            stim/2.jpeg   stim/4.jpeg   E             F             noresponse     57.467        1 
EF             59.548        2.5          Training       10           F             n/a            0            stim/2.jpeg   stim/4.jpeg   E             F             noresponse     62.096        1 
CD             66.391        2.5          Training       11           C             n/a            0            stim/1.jpeg   stim/6.jpeg   D             C             noresponse     68.939        1 
AB             71.62         2.5          Training       12           A             n/a            0            stim/5.jpeg   stim/3.jpeg   A             B             noresponse     74.167        1 
EF             78.246        2.5          Training       13           F             n/a            0            stim/4.jpeg   stim/2.jpeg   F             E             noresponse     80.794        1 
CD             83.874        2.5          Training       14           C             n/a            0            stim/6.jpeg   stim/1.jpeg   C             D             noresponse     86.422        1 
CD             90.717        2.5          Training       15           C             n/a            0            stim/6.jpeg   stim/1.jpeg   C             D             noresponse     93.265        1 
AB             97.344        2.5          Training       16           B             n/a            0            stim/5.jpeg   stim/3.jpeg   A             B             noresponse     99.892        1 
EF             103.388       2.5          Training       17           E             n/a            0            stim/4.jpeg   stim/2.jpeg   F             E             noresponse     105.936       1 
CD             108.017       2.5          Training       18           C             n/a            0            stim/6.jpeg   stim/1.jpeg   C             D             noresponse     110.565       1 
EF             113.262       2.5          Training       19           F             n/a            0            stim/4.jpeg   stim/2.jpeg   F             E             noresponse     115.809       1 
EF             118.89        2.5          Training       20           E             n/a            0            stim/2.jpeg   stim/4.jpeg   E             F             noresponse     121.437       1 
CD             125.517       2.5          Training       21           D             n/a            0            stim/1.jpeg   stim/6.jpeg   D             C             noresponse     128.064       1 
EF             132.36        2.5          Training       22           F             n/a            0            stim/2.jpeg   stim/4.jpeg   E             F             noresponse     134.907       1 
EF             138.387       2.5          Training       23           F             n/a            0            stim/2.jpeg   stim/4.jpeg   E             F             noresponse     140.935       1 
EF             143.016       2.5          Training       24           E             n/a            0            stim/4.jpeg   stim/2.jpeg   F             E             noresponse     145.564       1 
EF             148.244       2.5          Training       25           E             n/a            0            stim/4.jpeg   stim/2.jpeg   F             E             noresponse     150.792       1 
EF             153.889       2.5          Training       26           F             n/a            0            stim/4.jpeg   stim/2.jpeg   F             E             noresponse     156.436       1 
CD             160.532       2.5          Training       27           C             n/a            0            stim/6.jpeg   stim/1.jpeg   C             D             noresponse     163.08        1 
AB             165.76        2.5          Training       28           A             n/a            0            stim/5.jpeg   stim/3.jpeg   A             B             noresponse     168.308       1 
AB             172.604       2.5          Training       29           A             n/a            0            stim/5.jpeg   stim/3.jpeg   A             B             noresponse     175.151       1 
EF             178.631       2.5          Training       30           E             n/a            0            stim/2.jpeg   stim/4.jpeg   E             F             noresponse     181.179       1 
AB             183.277       2.5          Training       31           B             n/a            0            stim/5.jpeg   stim/3.jpeg   A             B             noresponse     185.824       1 
AB             189.92        2.5          Training       32           A             n/a            0            stim/3.jpeg   stim/5.jpeg   B             A             noresponse     192.468       1 
AB             196.747       2.5          Training       33           A             n/a            0            stim/5.jpeg   stim/3.jpeg   A             B             noresponse     199.294       1 
CD             202.391       2.5          Training       34           C             n/a            0            stim/1.jpeg   stim/6.jpeg   D             C             noresponse     204.939       1 
CD             207.619       2.5          Training       35           D             n/a            0            stim/1.jpeg   stim/6.jpeg   D             C             noresponse     210.167       1 
AB             213.647       2.5          Training       36           B             n/a            0            stim/3.jpeg   stim/5.jpeg   B             A             noresponse     216.194       1 
CD             218.276       2.5          Training       37           C             n/a            0            stim/6.jpeg   stim/1.jpeg   C             D             noresponse     220.823       1 
CD             225.119       2.5          Training       38           C             n/a            0            stim/1.jpeg   stim/6.jpeg   D             C             noresponse     227.666       1 
AB             231.146       2.5          Training       39           A             n/a            0            stim/5.jpeg   stim/3.jpeg   A             B             noresponse     233.694       1 
EF             236.757       2.5          Training       40           E             n/a            0            stim/4.jpeg   stim/2.jpeg   F             E             noresponse     239.305       1 
CD             243.384       2.5          Training       41           D             n/a            0            stim/6.jpeg   stim/1.jpeg   C             D             noresponse     245.932       1 
EF             248.596       2.5          Training       42           E             n/a            0            stim/4.jpeg   stim/2.jpeg   F             E             noresponse     251.143       1 
AB             253.225       2.5          Training       43           A             n/a            0            stim/3.jpeg   stim/5.jpeg   B             A             noresponse     255.772       1 
CD             259.868       2.5          Training       44           D             n/a            0            stim/6.jpeg   stim/1.jpeg   C             D             noresponse     262.416       1 
CD             265.896       2.5          Training       45           C             n/a            0            stim/1.jpeg   stim/6.jpeg   D             C             noresponse     268.443       1 
CD             271.107       2.5          Training       46           C             n/a            0            stim/1.jpeg   stim/6.jpeg   D             C             noresponse     273.655       1 
EF             276.735       2.5          Training       47           E             n/a            0            stim/2.jpeg   stim/4.jpeg   E             F             noresponse     279.282       1 
EF             283.562       2.5          Training       48           E             n/a            0            stim/2.jpeg   stim/4.jpeg   E             F             noresponse     286.109       1 
AB             288.19        2.5          Training       49           A             n/a            0            stim/3.jpeg   stim/5.jpeg   B             A             noresponse     290.738       1 
AB             293.835       2.5          Training       50           A             n/a            0            stim/3.jpeg   stim/5.jpeg   B             A             noresponse     296.382       1 
AB             300.462       2.5          Training       51           A             n/a            0            stim/5.jpeg   stim/3.jpeg   A             B             noresponse     303.009       1 
EF             307.288       2.5          Training       52           F             n/a            0            stim/4.jpeg   stim/2.jpeg   F             E             noresponse     309.836       1 
CD             313.665       2.5          Training       53           C             n/a            0            stim/6.jpeg   stim/1.jpeg   C             D             noresponse     316.213       1 
EF             318.894       2.5          Training       54           F             n/a            0            stim/2.jpeg   stim/4.jpeg   E             F             noresponse     321.441       1 
CD             323.522       2.5          Training       55           D             n/a            0            stim/1.jpeg   stim/6.jpeg   D             C             noresponse     326.07        1 
CD             329.15        2.5          Training       56           C             n/a            0            stim/6.jpeg   stim/1.jpeg   C             D             noresponse     331.698       1 
CD             334.378       2.5          Training       57           D             n/a            0            stim/1.jpeg   stim/6.jpeg   D             C             noresponse     336.926       1 
AB             341.222       2.5          Training       58           A             n/a            0            stim/3.jpeg   stim/5.jpeg   B             A             noresponse     343.769       1 
AB             345.85        2.5          Training       59           A             n/a            0            stim/5.jpeg   stim/3.jpeg   A             B             noresponse     348.398       1 
AB             351.878       2.5          Training       60           A             n/a            0            stim/3.jpeg   stim/5.jpeg   B             A             noresponse     354.425       1 
