stimulus_pair onset         duration      trial_type    trial_number  correct_response            response      response_time stim_file_left              stim_file_right             stim_type_left              stim_type_right
CE             8.074         2.5          Testing        61                         n/a            0            stim/5.jpeg   stim/3.jpeg   E             C
BC             13.043        2.5          Testing        62                         n/a            0            stim/3.jpeg   stim/1.jpeg   C             B
AF             18.611        2.5          Testing        63                         n/a            0            stim/6.jpeg   stim/4.jpeg   A             F
BD             24.379        2.5          Testing        64                         n/a            0            stim/2.jpeg   stim/1.jpeg   D             B
BE             27.947        2.5          Testing        65                         n/a            0            stim/1.jpeg   stim/5.jpeg   B             E
BF             32.515        2.5          Testing        66                         n/a            0            stim/4.jpeg   stim/1.jpeg   F             B
DE             36.683        2.5          Testing        67                         n/a            0            stim/2.jpeg   stim/5.jpeg   D             E
BE             41.251        2.5          Testing        68                         n/a            0            stim/5.jpeg   stim/1.jpeg   E             B
AD             47.02         2.5          Testing        69                         n/a            0            stim/6.jpeg   stim/2.jpeg   A             D
DE             51.988        2.5          Testing        70                         n/a            0            stim/2.jpeg   stim/5.jpeg   D             E
AC             55.556        2.5          Testing        71                         n/a            0            stim/3.jpeg   stim/6.jpeg   C             A
BE             61.124        2.5          Testing        72                         n/a            0            stim/5.jpeg   stim/1.jpeg   E             B
AC             65.292        2.5          Testing        73                         n/a            0            stim/6.jpeg   stim/3.jpeg   A             C
AD             70.26         2.5          Testing        74                         n/a            0            stim/2.jpeg   stim/6.jpeg   D             A
BE             74.828        2.5          Testing        75                         n/a            0            stim/1.jpeg   stim/5.jpeg   B             E
DE             80.397        2.5          Testing        76                         n/a            0            stim/2.jpeg   stim/5.jpeg   D             E
AF             86.165        2.5          Testing        77                         n/a            0            stim/4.jpeg   stim/6.jpeg   F             A
AF             90.333        2.5          Testing        78                         n/a            0            stim/6.jpeg   stim/4.jpeg   A             F
BE             93.901        2.5          Testing        79                         n/a            0            stim/1.jpeg   stim/5.jpeg   B             E
CE             98.869        2.5          Testing        80                         n/a            0            stim/5.jpeg   stim/3.jpeg   E             C
AF             104.438       2.5          Testing        81                         n/a            0            stim/4.jpeg   stim/6.jpeg   F             A
CE             108.606       2.5          Testing        82                         n/a            0            stim/3.jpeg   stim/5.jpeg   C             E
BF             113.174       2.5          Testing        83                         n/a            0            stim/4.jpeg   stim/1.jpeg   F             B
AC             116.741       2.5          Testing        84                         n/a            0            stim/3.jpeg   stim/6.jpeg   C             A
BF             122.51        2.5          Testing        85                         n/a            0            stim/1.jpeg   stim/4.jpeg   B             F
AF             127.078       2.5          Testing        86                         n/a            0            stim/6.jpeg   stim/4.jpeg   A             F
BC             132.046       2.5          Testing        87                         n/a            0            stim/1.jpeg   stim/3.jpeg   B             C
AE             136.214       2.5          Testing        88                         n/a            0            stim/6.jpeg   stim/5.jpeg   A             E
AE             139.782       2.5          Testing        89                         n/a            0            stim/6.jpeg   stim/5.jpeg   A             E
AF             145.55        2.5          Testing        90                         n/a            0            stim/6.jpeg   stim/4.jpeg   A             F
CE             151.119       2.5          Testing        91                         n/a            0            stim/3.jpeg   stim/5.jpeg   C             E
BD             155.287       2.5          Testing        92                         n/a            0            stim/2.jpeg   stim/1.jpeg   D             B
BC             160.255       2.5          Testing        93                         n/a            0            stim/3.jpeg   stim/1.jpeg   C             B
DF             166.023       2.5          Testing        94                         n/a            0            stim/2.jpeg   stim/4.jpeg   D             F
BD             171.592       2.5          Testing        95                         n/a            0            stim/2.jpeg   stim/1.jpeg   D             B
AE             176.16        2.5          Testing        96                         n/a            0            stim/5.jpeg   stim/6.jpeg   E             A
BE             179.728       2.5          Testing        97                         n/a            0            stim/5.jpeg   stim/1.jpeg   E             B
AE             183.895       2.5          Testing        98                         n/a            0            stim/5.jpeg   stim/6.jpeg   E             A
AD             188.464       2.5          Testing        99                         n/a            0            stim/2.jpeg   stim/6.jpeg   D             A
AC             193.432       2.5          Testing        100                        n/a            0            stim/6.jpeg   stim/3.jpeg   A             C
AF             199           2.5          Testing        101                        n/a            0            stim/4.jpeg   stim/6.jpeg   F             A
CF             202.568       2.5          Testing        102                        n/a            0            stim/3.jpeg   stim/4.jpeg   C             F
BF             208.336       2.5          Testing        103                        n/a            0            stim/1.jpeg   stim/4.jpeg   B             F
BF             212.904       2.5          Testing        104                        n/a            0            stim/1.jpeg   stim/4.jpeg   B             F
BC             217.072       2.5          Testing        105                        n/a            0            stim/3.jpeg   stim/1.jpeg   C             B
DE             222.041       2.5          Testing        106                        n/a            0            stim/5.jpeg   stim/2.jpeg   E             D
AE             227.809       2.5          Testing        107                        n/a            0            stim/6.jpeg   stim/5.jpeg   A             E
AD             231.377       2.5          Testing        108                        n/a            0            stim/6.jpeg   stim/2.jpeg   A             D
BF             236.945       2.5          Testing        109                        n/a            0            stim/4.jpeg   stim/1.jpeg   F             B
CF             241.913       2.5          Testing        110                        n/a            0            stim/3.jpeg   stim/4.jpeg   C             F
BF             246.482       2.5          Testing        111                        n/a            0            stim/1.jpeg   stim/4.jpeg   B             F
AE             250.65        2.5          Testing        112                        n/a            0            stim/6.jpeg   stim/5.jpeg   A             E
AD             256.218       2.5          Testing        113                        n/a            0            stim/6.jpeg   stim/2.jpeg   A             D
AC             261.986       2.5          Testing        114                        n/a            0            stim/6.jpeg   stim/3.jpeg   A             C
AC             265.554       2.5          Testing        115                        n/a            0            stim/6.jpeg   stim/3.jpeg   A             C
BD             269.722       2.5          Testing        116                        n/a            0            stim/2.jpeg   stim/1.jpeg   D             B
BD             274.29        2.5          Testing        117                        n/a            0            stim/2.jpeg   stim/1.jpeg   D             B
BC             279.859       2.5          Testing        118                        n/a            0            stim/3.jpeg   stim/1.jpeg   C             B
AF             285.627       2.5          Testing        119                        n/a            0            stim/4.jpeg   stim/6.jpeg   F             A
CF             290.595       2.5          Testing        120                        n/a            0            stim/4.jpeg   stim/3.jpeg   F             C
AE             294.163       2.5          Testing        121                        n/a            0            stim/5.jpeg   stim/6.jpeg   E             A
BE             299.931       2.5          Testing        122                        n/a            0            stim/5.jpeg   stim/1.jpeg   E             B
DF             305.5         2.5          Testing        123                        n/a            0            stim/2.jpeg   stim/4.jpeg   D             F
CF             309.668       2.5          Testing        124                        n/a            0            stim/4.jpeg   stim/3.jpeg   F             C
BC             314.236       2.5          Testing        125                        n/a            0            stim/1.jpeg   stim/3.jpeg   B             C
BC             319.204       2.5          Testing        126                        n/a            0            stim/1.jpeg   stim/3.jpeg   B             C
AD             322.772       2.5          Testing        127                        n/a            0            stim/6.jpeg   stim/2.jpeg   A             D
DF             327.34        2.5          Testing        128                        n/a            0            stim/4.jpeg   stim/2.jpeg   F             D
AD             332.308       2.5          Testing        129                        n/a            0            stim/2.jpeg   stim/6.jpeg   D             A
AE             337.877       2.5          Testing        130                        n/a            0            stim/6.jpeg   stim/5.jpeg   A             E
BF             343.645       2.5          Testing        131                        n/a            0            stim/4.jpeg   stim/1.jpeg   F             B
AE             347.213       2.5          Testing        132                        n/a            0            stim/5.jpeg   stim/6.jpeg   E             A
CE             351.381       2.5          Testing        133                        n/a            0            stim/3.jpeg   stim/5.jpeg   C             E
AC             356.949       2.5          Testing        134                        n/a            0            stim/3.jpeg   stim/6.jpeg   C             A
DF             361.117       2.5          Testing        135                        n/a            0            stim/2.jpeg   stim/4.jpeg   D             F
BD             366.085       2.5          Testing        136                        n/a            0            stim/1.jpeg   stim/2.jpeg   B             D
BC             371.854       2.5          Testing        137                        n/a            0            stim/1.jpeg   stim/3.jpeg   B             C
DE             376.422       2.5          Testing        138                        n/a            0            stim/5.jpeg   stim/2.jpeg   E             D
BD             379.99        2.5          Testing        139                        n/a            0            stim/1.jpeg   stim/2.jpeg   B             D
BE             385.758       2.5          Testing        140                        n/a            0            stim/5.jpeg   stim/1.jpeg   E             B
AC             390.326       2.5          Testing        141                        n/a            0            stim/3.jpeg   stim/6.jpeg   C             A
BD             394.494       2.5          Testing        142                        n/a            0            stim/1.jpeg   stim/2.jpeg   B             D
CF             400.062       2.5          Testing        143                        n/a            0            stim/4.jpeg   stim/3.jpeg   F             C
BE             403.63        2.5          Testing        144                        n/a            0            stim/1.jpeg   stim/5.jpeg   B             E
BC             408.598       2.5          Testing        145                        n/a            0            stim/1.jpeg   stim/3.jpeg   B             C
AE             414.367       2.5          Testing        146                        n/a            0            stim/5.jpeg   stim/6.jpeg   E             A
BD             417.935       2.5          Testing        147                        n/a            0            stim/1.jpeg   stim/2.jpeg   B             D
DE             422.903       2.5          Testing        148                        n/a            0            stim/5.jpeg   stim/2.jpeg   E             D
AD             427.071       2.5          Testing        149                        n/a            0            stim/2.jpeg   stim/6.jpeg   D             A
BD             432.639       2.5          Testing        150                        n/a            0            stim/1.jpeg   stim/2.jpeg   B             D
BE             437.207       2.5          Testing        151                        n/a            0            stim/1.jpeg   stim/5.jpeg   B             E
AD             442.175       2.5          Testing        152                        n/a            0            stim/2.jpeg   stim/6.jpeg   D             A
AF             447.944       2.5          Testing        153                        n/a            0            stim/6.jpeg   stim/4.jpeg   A             F
AC             452.512       2.5          Testing        154                        n/a            0            stim/6.jpeg   stim/3.jpeg   A             C
BF             456.08        2.5          Testing        155                        n/a            0            stim/4.jpeg   stim/1.jpeg   F             B
AC             460.248       2.5          Testing        156                        n/a            0            stim/3.jpeg   stim/6.jpeg   C             A
CE             465.816       2.5          Testing        157                        n/a            0            stim/5.jpeg   stim/3.jpeg   E             C
BF             469.984       2.5          Testing        158                        n/a            0            stim/1.jpeg   stim/4.jpeg   B             F
DF             474.952       2.5          Testing        159                        n/a            0            stim/4.jpeg   stim/2.jpeg   F             D
AD             480.721       2.5          Testing        160                        n/a            0            stim/6.jpeg   stim/2.jpeg   A             D
CF             486.289       2.5          Testing        161                        n/a            0            stim/3.jpeg   stim/4.jpeg   C             F
AF             490.857       2.5          Testing        162                        n/a            0            stim/4.jpeg   stim/6.jpeg   F             A
BC             494.425       2.5          Testing        163                        n/a            0            stim/3.jpeg   stim/1.jpeg   C             B
DF             498.593       2.5          Testing        164                        n/a            0            stim/4.jpeg   stim/2.jpeg   F             D
