stimulus_pair onset         duration      trial_type    trial_number  correct_response            response      response_time stim_file_left              stim_file_right             stim_type_left              stim_type_right             feedback      feedback_onset              feedback_duration
CD             8.271         2.5          Training       1            C             C              0.95         stimuli/1.jpeg              stimuli/5.jpeg              C             D             correct        11.005        1 
AB             13.873        2.5          Training       2            A             A              1.031        stimuli/2.jpeg              stimuli/3.jpeg              B             A             correct        16.607        1 
AB             20.875        2.5          Training       3            B             B              1.585        stimuli/3.jpeg              stimuli/2.jpeg              A             B             correct        23.609        1 
AB             27.277        2.5          Training       4            A             A              1.093        stimuli/2.jpeg              stimuli/3.jpeg              B             A             correct        30.011        1 
AB             33.279        2.5          Training       5            A             A              1.217        stimuli/3.jpeg              stimuli/2.jpeg              A             B             correct        36.013        1 
CD             40.481        2.5          Training       6            D             D              1.652        stimuli/5.jpeg              stimuli/1.jpeg              D             C             correct        43.215        1 
EF             45.483        2.5          Training       7            F             F              1.352        stimuli/6.jpeg              stimuli/4.jpeg              E             F             correct        48.217        1 
EF             52.485        2.5          Training       8            E             E              0.923        stimuli/4.jpeg              stimuli/6.jpeg              F             E             correct        55.219        1 
AB             59.687        2.5          Training       9            A             A              1.282        stimuli/3.jpeg              stimuli/2.jpeg              A             B             correct        62.421        1 
EF             65.689        2.5          Training       10           F             F              0.775        stimuli/4.jpeg              stimuli/6.jpeg              F             E             correct        68.423        1 
AB             72.091        2.5          Training       11           A             A              1.242        stimuli/2.jpeg              stimuli/3.jpeg              B             A             correct        74.825        1 
CD             77.693        2.5          Training       12           C             C              1.574        stimuli/5.jpeg              stimuli/1.jpeg              D             C             correct        80.427        1 
AB             82.694        2.5          Training       13           A             A              0.665        stimuli/2.jpeg              stimuli/3.jpeg              B             A             correct        85.428        1 
EF             89.896        2.5          Training       14           E             E              1.748        stimuli/6.jpeg              stimuli/4.jpeg              E             F             correct        92.631        1 
CD             95.498        2.5          Training       15           C             C              1.274        stimuli/1.jpeg              stimuli/5.jpeg              C             D             correct        98.232        1 
EF             101.5         2.5          Training       16           E             E              1.349        stimuli/4.jpeg              stimuli/6.jpeg              F             E             correct        104.234       1 
EF             106.502       2.5          Training       17           F             F              0.781        stimuli/4.jpeg              stimuli/6.jpeg              F             E             correct        109.236       1 
AB             112.904       2.5          Training       18           A             A              1.231        stimuli/3.jpeg              stimuli/2.jpeg              A             B             correct        115.638       1 
CD             119.906       2.5          Training       19           C             C              0.834        stimuli/1.jpeg              stimuli/5.jpeg              C             D             correct        122.64        1 
AB             124.907       2.5          Training       20           B             B              0.809        stimuli/2.jpeg              stimuli/3.jpeg              B             A             correct        127.642       1 
CD             131.91        2.5          Training       21           C             C              1.218        stimuli/5.jpeg              stimuli/1.jpeg              D             C             correct        134.644       1 
AB             138.311       2.5          Training       22           A             A              1.635        stimuli/3.jpeg              stimuli/2.jpeg              A             B             correct        141.046       1 
EF             144.313       2.5          Training       23           E             E              0.679        stimuli/4.jpeg              stimuli/6.jpeg              F             E             correct        147.048       1 
AB             151.516       2.5          Training       24           B             B              0.944        stimuli/2.jpeg              stimuli/3.jpeg              B             A             correct        154.25        1 
CD             157.117       2.5          Training       25           C             C              0.8          stimuli/1.jpeg              stimuli/5.jpeg              C             D             correct        159.852       1 
CD             163.119       2.5          Training       26           D             D              1.217        stimuli/5.jpeg              stimuli/1.jpeg              D             C             correct        165.853       1 
AB             170.321       2.5          Training       27           A             A              1.103        stimuli/2.jpeg              stimuli/3.jpeg              B             A             correct        173.056       1 
AB             176.723       2.5          Training       28           A             A              1.078        stimuli/2.jpeg              stimuli/3.jpeg              B             A             correct        179.458       1 
EF             183.726       2.5          Training       29           F             E              1.741        stimuli/4.jpeg              stimuli/6.jpeg              F             E             wrong          186.46        1 
AB             189.327       2.5          Training       30           A             A              0.651        stimuli/3.jpeg              stimuli/2.jpeg              A             B             correct        192.062       1 
EF             194.329       2.5          Training       31           F             F              1.344        stimuli/6.jpeg              stimuli/4.jpeg              E             F             correct        197.063       1 
EF             201.531       2.5          Training       32           E             E              1.864        stimuli/4.jpeg              stimuli/6.jpeg              F             E             correct        204.265       1 
EF             207.133       2.5          Training       33           F             F              1.756        stimuli/6.jpeg              stimuli/4.jpeg              E             F             correct        209.867       1 
EF             213.135       2.5          Training       34           E             E              1.507        stimuli/6.jpeg              stimuli/4.jpeg              E             F             correct        215.869       1 
AB             218.136       2.5          Training       35           B             B              1.792        stimuli/3.jpeg              stimuli/2.jpeg              A             B             correct        220.87        1 
CD             224.538       2.5          Training       36           C             C              1.114        stimuli/1.jpeg              stimuli/5.jpeg              C             D             correct        227.272       1 
EF             231.54        2.5          Training       37           E             E              0.857        stimuli/6.jpeg              stimuli/4.jpeg              E             F             correct        234.275       1 
CD             237.942       2.5          Training       38           C             C              1.253        stimuli/5.jpeg              stimuli/1.jpeg              D             C             correct        240.677       1 
AB             244.944       2.5          Training       39           A             A              1.121        stimuli/3.jpeg              stimuli/2.jpeg              A             B             correct        247.679       1 
EF             250.946       2.5          Training       40           E             E              1.468        stimuli/4.jpeg              stimuli/6.jpeg              F             E             correct        253.681       1 
EF             258.149       2.5          Training       41           E             E              0.981        stimuli/6.jpeg              stimuli/4.jpeg              E             F             correct        260.883       1 
CD             263.15        2.5          Training       42           C             D              1.446        stimuli/5.jpeg              stimuli/1.jpeg              D             C             wrong          265.884       1 
CD             268.752       2.5          Training       43           D             D              1.175        stimuli/1.jpeg              stimuli/5.jpeg              C             D             correct        271.486       1 
AB             274.754       2.5          Training       44           A             A              1.016        stimuli/3.jpeg              stimuli/2.jpeg              A             B             correct        277.488       1 
CD             280.356       2.5          Training       45           C             C              0.685        stimuli/1.jpeg              stimuli/5.jpeg              C             D             correct        283.09        1 
AB             287.358       2.5          Training       46           A             A              1.809        stimuli/2.jpeg              stimuli/3.jpeg              B             A             correct        290.092       1 
CD             293.76        2.5          Training       47           C             C              1.858        stimuli/1.jpeg              stimuli/5.jpeg              C             D             correct        296.494       1 
EF             300.962       2.5          Training       48           F             F              1.567        stimuli/4.jpeg              stimuli/6.jpeg              F             E             correct        303.696       1 
EF             305.963       2.5          Training       49           E             E              1.126        stimuli/4.jpeg              stimuli/6.jpeg              F             E             correct        308.698       1 
EF             312.966       2.5          Training       50           F             F              1.142        stimuli/6.jpeg              stimuli/4.jpeg              E             F             correct        315.7         1 
CD             318.967       2.5          Training       51           D             D              0.815        stimuli/5.jpeg              stimuli/1.jpeg              D             C             correct        321.702       1 
AB             325.369       2.5          Training       52           A             B              1.365        stimuli/2.jpeg              stimuli/3.jpeg              B             A             wrong          328.104       1 
EF             332.572       2.5          Training       53           E             E              1.656        stimuli/6.jpeg              stimuli/4.jpeg              E             F             correct        335.306       1 
CD             338.173       2.5          Training       54           D             D              1.282        stimuli/5.jpeg              stimuli/1.jpeg              D             C             correct        340.908       1 
AB             343.175       2.5          Training       55           A             A              1.05         stimuli/3.jpeg              stimuli/2.jpeg              A             B             correct        345.909       1 
CD             348.777       2.5          Training       56           C             C              1.21         stimuli/1.jpeg              stimuli/5.jpeg              C             D             correct        351.511       1 
EF             355.179       2.5          Training       57           E             E              1.385        stimuli/6.jpeg              stimuli/4.jpeg              E             F             correct        357.913       1 
CD             361.18        2.5          Training       58           C             C              1.632        stimuli/5.jpeg              stimuli/1.jpeg              D             C             correct        363.915       1 
CD             366.182       2.5          Training       59           D             D              0.994        stimuli/1.jpeg              stimuli/5.jpeg              C             D             correct        368.916       1 
CD             373.184       2.5          Training       60           C             C              1.213        stimuli/5.jpeg              stimuli/1.jpeg              D             C             correct        375.918       1 
